  Detailed Percentile spectrum:
       Value   Percentile   TotalCount 1/(1-Percentile)

       0.230     0.000000            1         1.00
       0.630     0.100000         5015         1.11
       0.938     0.200000        10008         1.25
       1.239     0.300000        14998         1.43
       1.541     0.400000        20009         1.67
       1.866     0.500000        25004         2.00
       2.042     0.550000        27494         2.22
       2.239     0.600000        30006         2.50
       2.467     0.650000        32495         2.86
       2.777     0.700000        35003         3.33
       3.293     0.750000        37491         4.00
       3.805     0.775000        38742         4.44
       4.875     0.800000        39991         5.00
       6.475     0.825000        41241         5.71
       8.471     0.850000        42493         6.67
      10.639     0.875000        43746         8.00
      12.071     0.887500        44366         8.89
      13.759     0.900000        44991        10.00
      15.575     0.912500        45618        11.43
      18.239     0.925000        46240        13.33
      21.695     0.937500        46864        16.00
      23.711     0.943750        47177        17.78
      25.983     0.950000        47490        20.00
      29.135     0.956250        47802        22.86
      33.919     0.962500        48116        26.67
      39.487     0.968750        48426        32.00
      42.815     0.971875        48583        35.56
      45.951     0.975000        48739        40.00
      48.895     0.978125        48896        45.71
      51.199     0.981250        49055        53.33
      54.367     0.984375        49210        64.00
      56.031     0.985938        49286        71.11
      58.015     0.987500        49367        80.00
      60.607     0.989062        49442        91.43
      63.295     0.990625        49520       106.67
      66.623     0.992188        49598       128.00
      68.735     0.992969        49637       142.22
      70.719     0.993750        49676       160.00
      72.575     0.994531        49715       182.86
      73.407     0.995313        49754       213.33
      75.391     0.996094        49793       256.00
      76.671     0.996484        49813       284.44
      77.567     0.996875        49834       320.00
      78.015     0.997266        49852       365.71
      78.335     0.997656        49872       426.67
      78.783     0.998047        49894       512.00
      78.911     0.998242        49901       568.89
      79.167     0.998437        49912       640.00
      79.359     0.998633        49921       731.43
      79.743     0.998828        49930       853.33
      80.255     0.999023        49941      1024.00
      80.383     0.999121        49946      1137.78
      80.511     0.999219        49949      1280.00
      80.767     0.999316        49954      1462.86
      81.023     0.999414        49959      1706.67
      81.279     0.999512        49965      2048.00
      81.471     0.999561        49967      2275.56
      81.663     0.999609        49970      2560.00
      81.727     0.999658        49971      2925.71
      81.855     0.999707        49974      3413.33
      81.919     0.999756        49976      4096.00
      82.047     0.999780        49979      4551.11
      82.047     0.999805        49979      5120.00
      82.111     0.999829        49982      5851.43
      82.111     0.999854        49982      6826.67
      82.111     0.999878        49982      8192.00
      82.175     0.999890        49984      9102.22
      82.175     0.999902        49984     10240.00
      82.175     0.999915        49984     11702.86
      82.239     0.999927        49986     13653.33
      82.239     0.999939        49986     16384.00
      82.239     0.999945        49986     18204.44
      82.239     0.999951        49986     20480.00
      82.239     0.999957        49986     23405.71
      82.303     0.999963        49987     27306.67
      82.303     0.999969        49987     32768.00
      82.303     0.999973        49987     36408.89
      82.303     0.999976        49987     40960.00
      82.303     0.999979        49987     46811.43
      82.367     0.999982        49988     54613.33
      82.367     1.000000        49988          inf
