 Detailed Percentile spectrum:
       Value   Percentile   TotalCount 1/(1-Percentile)

       0.026     0.000000            2         1.00
       1.145     0.100000        59623         1.11
       1.712     0.200000       119146         1.25
       2.273     0.300000       178739         1.43
       2.889     0.400000       238275         1.67
       3.633     0.500000       297692         2.00
       4.115     0.550000       327533         2.22
       4.735     0.600000       357153         2.50
       5.619     0.650000       386990         2.86
       6.903     0.700000       416676         3.33
       8.967     0.750000       446506         4.00
      10.407     0.775000       461357         4.44
      12.303     0.800000       476251         5.00
      14.711     0.825000       491087         5.71
      18.047     0.850000       506012         6.67
      23.391     0.875000       520843         8.00
      27.407     0.887500       528296         8.89
      32.751     0.900000       535727        10.00
      39.103     0.912500       543183        11.43
      48.607     0.925000       550598        13.33
      62.239     0.937500       558042        16.00
      70.207     0.943750       561771        17.78
      78.271     0.950000       565482        20.00
      88.255     0.956250       569215        22.86
      99.647     0.962500       572935        26.67
     113.215     0.968750       576646        32.00
     121.279     0.971875       578514        35.56
     129.663     0.975000       580370        40.00
     138.623     0.978125       582226        45.71
     147.583     0.981250       584091        53.33
     157.695     0.984375       585960        64.00
     163.327     0.985938       586889        71.11
     169.343     0.987500       587817        80.00
     175.103     0.989062       588743        91.43
     182.271     0.990625       589665       106.67
     190.719     0.992188       590598       128.00
     196.351     0.992969       591061       142.22
     202.495     0.993750       591535       160.00
     208.127     0.994531       591987       182.86
     212.991     0.995313       592456       213.33
     217.343     0.996094       592926       256.00
     219.135     0.996484       593150       284.44
     221.439     0.996875       593391       320.00
     223.487     0.997266       593636       365.71
     225.535     0.997656       593863       426.67
     227.711     0.998047       594085       512.00
     228.863     0.998242       594206       568.89
     230.143     0.998437       594322       640.00
     231.551     0.998633       594443       731.43
     232.959     0.998828       594550       853.33
     234.879     0.999023       594668      1024.00
     235.647     0.999121       594727      1137.78
     236.799     0.999219       594780      1280.00
     237.951     0.999316       594839      1462.86
     239.487     0.999414       594897      1706.67
     241.023     0.999512       594952      2048.00
     242.047     0.999561       594982      2275.56
     243.071     0.999609       595009      2560.00
     244.607     0.999658       595039      2925.71
     246.783     0.999707       595067      3413.33
     249.727     0.999756       595099      4096.00
     251.391     0.999780       595111      4551.11
     254.335     0.999805       595125      5120.00
     258.815     0.999829       595141      5851.43
     261.759     0.999854       595156      6826.67
     264.703     0.999878       595171      8192.00
     265.471     0.999890       595180      9102.22
     266.751     0.999902       595183     10240.00
     268.031     0.999915       595193     11702.86
     268.799     0.999927       595199     13653.33
     270.079     0.999939       595205     16384.00
     271.103     0.999945       595209     18204.44
     271.871     0.999951       595214     20480.00
     272.383     0.999957       595216     23405.71
     273.407     0.999963       595220     27306.67
     273.919     0.999969       595223     32768.00
     274.431     0.999973       595225     36408.89
     274.687     0.999976       595228     40960.00
     275.199     0.999979       595229     46811.43
     276.223     0.999982       595231     54613.33
     276.735     0.999985       595232     65536.00
     276.991     0.999986       595233     72817.78
     277.503     0.999988       595234     81920.00
     277.759     0.999989       595236     93622.86
     277.759     0.999991       595236    109226.67
     278.271     0.999992       595237    131072.00
     278.271     0.999993       595237    145635.56
     278.527     0.999994       595238    163840.00
     278.527     0.999995       595238    187245.71
     279.807     0.999995       595239    218453.33
     279.807     0.999996       595239    262144.00
     279.807     0.999997       595239    291271.11
     280.319     0.999997       595240    327680.00
     280.319     0.999997       595240    374491.43
     280.319     0.999998       595240    436906.67
     280.319     0.999998       595240    524288.00
     280.319     0.999998       595240    582542.22
     281.855     0.999998       595241    655360.00
     281.855     1.000000       595241          inf
