 Detailed Percentile spectrum:
       Value   Percentile   TotalCount 1/(1-Percentile)

       0.088     0.000000            1         1.00
       0.678     0.100000         4923         1.11
       0.961     0.200000         9856         1.25
       1.242     0.300000        14761         1.43
       1.537     0.400000        19691         1.67
       1.841     0.500000        24611         2.00
       2.014     0.550000        27061         2.22
       2.219     0.600000        29534         2.50
       2.485     0.650000        31979         2.86
       2.891     0.700000        34446         3.33
       3.549     0.750000        36900         4.00
       4.005     0.775000        38131         4.44
       4.579     0.800000        39359         5.00
       5.231     0.825000        40591         5.71
       5.923     0.850000        41821         6.67
       6.695     0.875000        43054         8.00
       7.139     0.887500        43664         8.89
       7.615     0.900000        44280        10.00
       8.163     0.912500        44896        11.43
       8.791     0.925000        45511        13.33
       9.511     0.937500        46130        16.00
       9.911     0.943750        46433        17.78
      10.359     0.950000        46741        20.00
      10.871     0.956250        47047        22.86
      11.495     0.962500        47354        26.67
      12.239     0.968750        47662        32.00
      12.567     0.971875        47815        35.56
      12.983     0.975000        47971        40.00
      13.559     0.978125        48125        45.71
      14.159     0.981250        48277        53.33
      14.991     0.984375        48430        64.00
      15.503     0.985938        48507        71.11
      16.175     0.987500        48585        80.00
      16.927     0.989062        48662        91.43
      17.999     0.990625        48738       106.67
      19.087     0.992188        48814       128.00
      19.823     0.992969        48853       142.22
      20.495     0.993750        48892       160.00
      21.071     0.994531        48929       182.86
      21.935     0.995313        48968       213.33
      22.991     0.996094        49007       256.00
      23.775     0.996484        49026       284.44
      24.591     0.996875        49046       320.00
      25.535     0.997266        49064       365.71
      26.703     0.997656        49083       426.67
      28.015     0.998047        49102       512.00
      28.655     0.998242        49112       568.89
      29.455     0.998437        49122       640.00
      29.759     0.998633        49131       731.43
      30.671     0.998828        49141       853.33
      31.935     0.999023        49150      1024.00
      32.447     0.999121        49155      1137.78
      33.759     0.999219        49160      1280.00
      34.047     0.999316        49165      1462.86
      34.847     0.999414        49170      1706.67
      35.423     0.999512        49174      2048.00
      36.287     0.999561        49177      2275.56
      38.335     0.999609        49179      2560.00
      40.735     0.999658        49182      2925.71
      42.175     0.999707        49184      3413.33
      42.367     0.999756        49187      4096.00
      42.943     0.999780        49188      4551.11
      42.975     0.999805        49189      5120.00
      43.423     0.999829        49190      5851.43
      44.159     0.999854        49191      6826.67
      44.511     0.999878        49192      8192.00
      44.863     0.999890        49193      9102.22
      45.215     0.999902        49194     10240.00
      45.215     0.999915        49194     11702.86
      45.279     0.999927        49195     13653.33
      45.279     0.999939        49195     16384.00
      45.503     0.999945        49196     18204.44
      45.503     0.999951        49196     20480.00
      45.503     0.999957        49196     23405.71
      46.495     0.999963        49197     27306.67
      46.495     0.999969        49197     32768.00
      46.495     0.999973        49197     36408.89
      46.495     0.999976        49197     40960.00
      46.495     0.999979        49197     46811.43
      52.895     0.999982        49198     54613.33
      52.895     1.000000        49198          inf

