Detailed Percentile spectrum:
       Value   Percentile   TotalCount 1/(1-Percentile)

       0.050     0.000000            1         1.00
       0.879     0.100000        19696         1.11
       1.255     0.200000        39368         1.25
       1.612     0.300000        59073         1.43
       2.020     0.400000        78767         1.67
       2.493     0.500000        98450         2.00
       2.759     0.550000       108272         2.22
       3.061     0.600000       118132         2.50
       3.417     0.650000       127964         2.86
       3.873     0.700000       137787         3.33
       4.531     0.750000       147636         4.00
       4.995     0.775000       152562         4.44
       5.591     0.800000       157465         5.00
       6.351     0.825000       162393         5.71
       7.331     0.850000       167305         6.67
       8.535     0.875000       172235         8.00
       9.255     0.887500       174682         8.89
      10.103     0.900000       177142        10.00
      11.071     0.912500       179604        11.43
      12.183     0.925000       182075        13.33
      13.599     0.937500       184530        16.00
      14.503     0.943750       185760        17.78
      15.479     0.950000       186985        20.00
      16.575     0.956250       188212        22.86
      17.919     0.962500       189444        26.67
      19.535     0.968750       190681        32.00
      20.511     0.971875       191302        35.56
      21.663     0.975000       191903        40.00
      23.103     0.978125       192519        45.71
      24.751     0.981250       193136        53.33
      26.879     0.984375       193748        64.00
      28.031     0.985938       194059        71.11
      29.439     0.987500       194363        80.00
      30.815     0.989062       194671        91.43
      32.703     0.990625       194979       106.67
      34.879     0.992188       195287       128.00
      36.159     0.992969       195440       142.22
      37.631     0.993750       195594       160.00
      39.039     0.994531       195748       182.86
      40.543     0.995313       195902       213.33
      42.559     0.996094       196055       256.00
      43.775     0.996484       196133       284.44
      44.831     0.996875       196211       320.00
      46.239     0.997266       196286       365.71
      47.551     0.997656       196364       426.67
      49.151     0.998047       196441       512.00
      50.143     0.998242       196479       568.89
      51.039     0.998437       196516       640.00
      51.839     0.998633       196554       731.43
      53.247     0.998828       196595       853.33
      54.463     0.999023       196633      1024.00
      54.943     0.999121       196653      1137.78
      55.583     0.999219       196670      1280.00
      56.063     0.999316       196689      1462.86
      56.831     0.999414       196708      1706.67
      57.279     0.999512       196727      2048.00
      57.631     0.999561       196737      2275.56
      58.207     0.999609       196747      2560.00
      58.655     0.999658       196757      2925.71
      58.879     0.999707       196766      3413.33
      59.423     0.999756       196775      4096.00
      59.711     0.999780       196780      4551.11
      59.903     0.999805       196785      5120.00
      60.063     0.999829       196790      5851.43
      60.639     0.999854       196795      6826.67
      60.927     0.999878       196799      8192.00
      61.247     0.999890       196802      9102.22
      61.471     0.999902       196804     10240.00
      61.727     0.999915       196807     11702.86
      61.887     0.999927       196809     13653.33
      62.047     0.999939       196811     16384.00
      62.079     0.999945       196813     18204.44
      62.143     0.999951       196814     20480.00
      62.175     0.999957       196815     23405.71
      62.527     0.999963       196816     27306.67
      62.591     0.999969       196817     32768.00
      62.655     0.999973       196818     36408.89
      62.751     0.999976       196819     40960.00
      62.751     0.999979       196819     46811.43
      63.167     0.999982       196820     54613.33
      63.167     0.999985       196820     65536.00
      63.263     0.999986       196821     72817.78
      63.263     0.999988       196821     81920.00
      63.263     0.999989       196821     93622.86
      63.487     0.999991       196822    109226.67
      63.487     0.999992       196822    131072.00
      63.487     0.999993       196822    145635.56
      63.487     0.999994       196822    163840.00
      63.487     0.999995       196822    187245.71
      65.407     0.999995       196823    218453.33
      65.407     1.000000       196823          inf

