 Detailed Percentile spectrum:
       Value   Percentile   TotalCount 1/(1-Percentile)

       0.092     0.000000            1         1.00
       1.272     0.100000        19690         1.11
       2.081     0.200000        39385         1.25
       3.033     0.300000        59105         1.43
       4.207     0.400000        78800         1.67
       5.795     0.500000        98479         2.00
       6.771     0.550000       108309         2.22
       7.943     0.600000       118166         2.50
       9.311     0.650000       128008         2.86
      11.135     0.700000       137856         3.33
      13.559     0.750000       147678         4.00
      15.135     0.775000       152613         4.44
      16.943     0.800000       157544         5.00
      19.039     0.825000       162439         5.71
      21.663     0.850000       167368         6.67
      24.607     0.875000       172293         8.00
      26.319     0.887500       174765         8.89
      28.239     0.900000       177222        10.00
      30.527     0.912500       179674        11.43
      33.759     0.925000       182135        13.33
      37.919     0.937500       184598        16.00
      40.607     0.943750       185824        17.78
      43.935     0.950000       187055        20.00
      48.127     0.956250       188280        22.86
      53.855     0.962500       189513        26.67
      61.567     0.968750       190749        32.00
      65.919     0.971875       191357        35.56
      71.615     0.975000       191971        40.00
      80.191     0.978125       192586        45.71
      90.815     0.981250       193204        53.33
     101.567     0.984375       193818        64.00
     107.711     0.985938       194126        71.11
     113.151     0.987500       194433        80.00
     119.743     0.989062       194742        91.43
     127.295     0.990625       195049       106.67
     138.495     0.992188       195359       128.00
     144.255     0.992969       195511       142.22
     149.503     0.993750       195665       160.00
     155.391     0.994531       195820       182.86
     161.535     0.995313       195972       213.33
     168.703     0.996094       196124       256.00
     172.671     0.996484       196201       284.44
     177.151     0.996875       196278       320.00
     182.015     0.997266       196355       365.71
     187.135     0.997656       196434       426.67
     191.743     0.998047       196511       512.00
     194.431     0.998242       196548       568.89
     197.375     0.998437       196587       640.00
     200.575     0.998633       196624       731.43
     203.647     0.998828       196663       853.33
     206.463     0.999023       196701      1024.00
     207.871     0.999121       196721      1137.78
     209.407     0.999219       196744      1280.00
     210.175     0.999316       196760      1462.86
     211.455     0.999414       196780      1706.67
     213.887     0.999512       196797      2048.00
     214.783     0.999561       196807      2275.56
     216.575     0.999609       196819      2560.00
     216.959     0.999658       196826      2925.71
     219.135     0.999707       196837      3413.33
     223.615     0.999756       196845      4096.00
     225.279     0.999780       196850      4551.11
     226.431     0.999805       196855      5120.00
     227.327     0.999829       196860      5851.43
     228.479     0.999854       196866      6826.67
     229.247     0.999878       196870      8192.00
     229.759     0.999890       196873      9102.22
     230.399     0.999902       196874     10240.00
     230.783     0.999915       196877     11702.86
     231.039     0.999927       196879     13653.33
     231.679     0.999939       196881     16384.00
     232.319     0.999945       196885     18204.44
     232.319     0.999951       196885     20480.00
     232.319     0.999957       196885     23405.71
     232.575     0.999963       196886     27306.67
     233.087     0.999969       196889     32768.00
     233.087     0.999973       196889     36408.89
     233.087     0.999976       196889     40960.00
     233.087     0.999979       196889     46811.43
     233.471     0.999982       196890     54613.33
     233.471     0.999985       196890     65536.00
     233.855     0.999986       196891     72817.78
     233.855     0.999988       196891     81920.00
     233.855     0.999989       196891     93622.86
     234.879     0.999991       196892    109226.67
     234.879     0.999992       196892    131072.00
     234.879     0.999993       196892    145635.56
     234.879     0.999994       196892    163840.00
     234.879     0.999995       196892    187245.71
     235.647     0.999995       196893    218453.33
     235.647     1.000000       196893          inf

