 Detailed Percentile spectrum:
       Value   Percentile   TotalCount 1/(1-Percentile)

       0.096     0.000000            1         1.00
       2.079     0.100000        59540         1.11
       3.731     0.200000       118987         1.25
       5.567     0.300000       178536         1.43
       7.663     0.400000       238000         1.67
      10.175     0.500000       297504         2.00
      11.679     0.550000       327135         2.22
      13.455     0.600000       356938         2.50
      15.551     0.650000       386603         2.86
      18.079     0.700000       416337         3.33
      21.103     0.750000       446220         4.00
      22.879     0.775000       460992         4.44
      24.863     0.800000       475875         5.00
      27.215     0.825000       490750         5.71
      30.031     0.850000       505574         6.67
      33.535     0.875000       520437         8.00
      35.615     0.887500       527908         8.89
      37.983     0.900000       535384        10.00
      40.735     0.912500       542774        11.43
      44.031     0.925000       550164        13.33
      48.159     0.937500       557631        16.00
      50.591     0.943750       561316        17.78
      53.375     0.950000       565060        20.00
      56.383     0.956250       568766        22.86
      59.903     0.962500       572457        26.67
      64.447     0.968750       576182        32.00
      67.455     0.971875       578068        35.56
      70.847     0.975000       579922        40.00
      74.559     0.978125       581755        45.71
      79.103     0.981250       583630        53.33
      84.799     0.984375       585480        64.00
      88.255     0.985938       586403        71.11
      92.351     0.987500       587334        80.00
      97.023     0.989062       588257        91.43
     102.463     0.990625       589192       106.67
     108.863     0.992188       590115       128.00
     112.127     0.992969       590586       142.22
     115.455     0.993750       591045       160.00
     118.719     0.994531       591508       182.86
     122.239     0.995313       591975       213.33
     126.399     0.996094       592440       256.00
     128.511     0.996484       592671       284.44
     131.327     0.996875       592906       320.00
     134.783     0.997266       593145       365.71
     137.855     0.997656       593367       426.67
     141.695     0.998047       593598       512.00
     143.615     0.998242       593718       568.89
     145.279     0.998437       593831       640.00
     147.071     0.998633       593947       731.43
     149.247     0.998828       594065       853.33
     151.935     0.999023       594188      1024.00
     153.087     0.999121       594238      1137.78
     154.495     0.999219       594297      1280.00
     155.775     0.999316       594358      1462.86
     157.439     0.999414       594411      1706.67
     159.103     0.999512       594470      2048.00
     160.127     0.999561       594500      2275.56
     161.023     0.999609       594529      2560.00
     162.559     0.999658       594557      2925.71
     163.967     0.999707       594587      3413.33
     165.503     0.999756       594614      4096.00
     166.527     0.999780       594629      4551.11
     167.551     0.999805       594643      5120.00
     168.703     0.999829       594658      5851.43
     169.983     0.999854       594672      6826.67
     171.391     0.999878       594688      8192.00
     171.903     0.999890       594694      9102.22
     172.671     0.999902       594702     10240.00
     173.951     0.999915       594711     11702.86
     174.463     0.999927       594716     13653.33
     176.383     0.999939       594724     16384.00
     176.895     0.999945       594727     18204.44
     177.407     0.999951       594730     20480.00
     177.791     0.999957       594734     23405.71
     179.199     0.999963       594738     27306.67
     179.583     0.999969       594741     32768.00
     179.711     0.999973       594743     36408.89
     180.479     0.999976       594745     40960.00
     182.399     0.999979       594747     46811.43
     182.783     0.999982       594750     54613.33
     182.783     0.999985       594750     65536.00
     182.911     0.999986       594751     72817.78
     183.039     0.999988       594752     81920.00
     183.167     0.999989       594753     93622.86
     185.727     0.999991       594754    109226.67
     186.111     0.999992       594755    131072.00
     186.111     0.999993       594755    145635.56
     186.239     0.999994       594756    163840.00
     186.239     0.999995       594756    187245.71
     186.367     0.999995       594757    218453.33
     186.367     0.999996       594757    262144.00
     186.367     0.999997       594757    291271.11
     186.495     0.999997       594758    327680.00
     186.495     0.999997       594758    374491.43
     186.495     0.999998       594758    436906.67
     186.495     0.999998       594758    524288.00
     186.495     0.999998       594758    582542.22
     189.439     0.999998       594759    655360.00
     189.439     1.000000       594759          inf
