Detailed Percentile spectrum:
       Value   Percentile   TotalCount 1/(1-Percentile)

       0.048     0.000000            1         1.00
       0.798     0.100000        39431         1.11
       1.086     0.200000        78779         1.25
       1.372     0.300000       118216         1.43
       1.739     0.400000       157586         1.67
       2.247     0.500000       196908         2.00
       2.563     0.550000       216688         2.22
       2.933     0.600000       236320         2.50
       3.367     0.650000       255970         2.86
       3.989     0.700000       275690         3.33
       5.143     0.750000       295364         4.00
       6.183     0.775000       305184         4.44
       7.695     0.800000       315023         5.00
       9.983     0.825000       324861         5.71
      13.751     0.850000       334718         6.67
      19.551     0.875000       344567         8.00
      23.519     0.887500       349475         8.89
      28.543     0.900000       354394        10.00
      35.103     0.912500       359325        11.43
      42.751     0.925000       364251        13.33
      51.935     0.937500       369171        16.00
      57.471     0.943750       371630        17.78
      64.255     0.950000       374090        20.00
      72.703     0.956250       376547        22.86
      85.183     0.962500       379007        26.67
      98.367     0.968750       381466        32.00
     105.471     0.971875       382712        35.56
     112.191     0.975000       383929        40.00
     118.591     0.978125       385157        45.71
     125.311     0.981250       386397        53.33
     133.119     0.984375       387632        64.00
     137.471     0.985938       388240        71.11
     141.695     0.987500       388854        80.00
     146.303     0.989062       389465        91.43
     151.679     0.990625       390090       106.67
     157.311     0.992188       390695       128.00
     160.639     0.992969       391012       142.22
     163.967     0.993750       391314       160.00
     167.295     0.994531       391631       182.86
     170.111     0.995313       391935       213.33
     173.439     0.996094       392233       256.00
     175.615     0.996484       392389       284.44
     177.791     0.996875       392549       320.00
     179.967     0.997266       392706       365.71
     182.399     0.997656       392857       426.67
     184.703     0.998047       393001       512.00
     186.111     0.998242       393079       568.89
     187.647     0.998437       393161       640.00
     189.311     0.998633       393236       731.43
     190.975     0.998828       393315       853.33
     193.279     0.999023       393389      1024.00
     194.431     0.999121       393427      1137.78
     195.711     0.999219       393466      1280.00
     197.375     0.999316       393504      1462.86
     199.551     0.999414       393542      1706.67
     201.471     0.999512       393580      2048.00
     202.879     0.999561       393598      2275.56
     203.903     0.999609       393618      2560.00
     205.823     0.999658       393639      2925.71
     207.103     0.999707       393657      3413.33
     208.511     0.999756       393674      4096.00
     209.151     0.999780       393684      4551.11
     209.791     0.999805       393694      5120.00
     210.943     0.999829       393705      5851.43
     211.839     0.999854       393714      6826.67
     212.991     0.999878       393725      8192.00
     213.375     0.999890       393727      9102.22
     214.527     0.999902       393733     10240.00
     215.039     0.999915       393737     11702.86
     215.551     0.999927       393742     13653.33
     217.471     0.999939       393746     16384.00
     217.855     0.999945       393749     18204.44
     218.495     0.999951       393751     20480.00
     219.263     0.999957       393754     23405.71
     219.775     0.999963       393756     27306.67
     220.671     0.999969       393758     32768.00
     221.055     0.999973       393760     36408.89
     221.311     0.999976       393761     40960.00
     221.823     0.999979       393762     46811.43
     222.207     0.999982       393763     54613.33
     222.975     0.999985       393764     65536.00
     224.383     0.999986       393765     72817.78
     224.511     0.999988       393766     81920.00
     224.511     0.999989       393766     93622.86
     226.303     0.999991       393767    109226.67
     226.303     0.999992       393767    131072.00
     226.431     0.999993       393768    145635.56
     226.431     0.999994       393768    163840.00
     226.431     0.999995       393768    187245.71
     226.559     0.999995       393769    218453.33
     226.559     0.999996       393769    262144.00
     226.559     0.999997       393769    291271.11
     226.559     0.999997       393769    327680.00
     226.559     0.999997       393769    374491.43
     228.095     0.999998       393770    436906.67
     228.095     1.000000       393770          inf

