Detailed Percentile spectrum:
       Value   Percentile   TotalCount 1/(1-Percentile)

       0.054     0.000000            1         1.00
       0.704     0.100000        49338         1.11
       0.955     0.200000        98486         1.25
       1.183     0.300000       147688         1.43
       1.391     0.400000       196846         1.67
       1.626     0.500000       246118         2.00
       1.779     0.550000       270635         2.22
       1.967     0.600000       295274         2.50
       2.189     0.650000       319852         2.86
       2.433     0.700000       344578         3.33
       2.709     0.750000       369014         4.00
       2.859     0.775000       381338         4.44
       3.027     0.800000       393616         5.00
       3.215     0.825000       406022         5.71
       3.425     0.850000       418217         6.67
       3.673     0.875000       430591         8.00
       3.815     0.887500       436700         8.89
       3.977     0.900000       442814        10.00
       4.163     0.912500       449030        11.43
       4.383     0.925000       455142        13.33
       4.687     0.937500       461283        16.00
       4.899     0.943750       464360        17.78
       5.167     0.950000       467420        20.00
       5.507     0.956250       470502        22.86
       6.075     0.962500       473563        26.67
       7.015     0.968750       476634        32.00
       7.819     0.971875       478173        35.56
       8.919     0.975000       479711        40.00
      10.591     0.978125       481248        45.71
      13.511     0.981250       482786        53.33
      17.695     0.984375       484324        64.00
      19.775     0.985938       485096        71.11
      21.871     0.987500       485862        80.00
      23.711     0.989062       486626        91.43
      25.887     0.990625       487401       106.67
      28.591     0.992188       488164       128.00
      30.223     0.992969       488556       142.22
      32.063     0.993750       488934       160.00
      34.207     0.994531       489323       182.86
      36.799     0.995313       489702       213.33
      40.191     0.996094       490086       256.00
      42.495     0.996484       490279       284.44
      45.183     0.996875       490470       320.00
      48.479     0.997266       490664       365.71
      52.639     0.997656       490856       426.67
      57.183     0.998047       491047       512.00
      59.071     0.998242       491143       568.89
      60.767     0.998437       491239       640.00
      62.303     0.998633       491335       731.43
      63.583     0.998828       491432       853.33
      64.927     0.999023       491530      1024.00
      65.471     0.999121       491576      1137.78
      66.175     0.999219       491627      1280.00
      66.943     0.999316       491671      1462.86
      67.519     0.999414       491721      1706.67
      68.159     0.999512       491768      2048.00
      68.479     0.999561       491792      2275.56
      68.799     0.999609       491816      2560.00
      69.183     0.999658       491840      2925.71
      69.695     0.999707       491870      3413.33
      70.079     0.999756       491890      4096.00
      70.399     0.999780       491901      4551.11
      70.719     0.999805       491914      5120.00
      70.975     0.999829       491925      5851.43
      71.231     0.999854       491935      6826.67
      71.679     0.999878       491948      8192.00
      71.935     0.999890       491953      9102.22
      72.255     0.999902       491959     10240.00
      72.575     0.999915       491968     11702.86
      72.703     0.999927       491972     13653.33
      72.895     0.999939       491978     16384.00
      73.023     0.999945       491981     18204.44
      73.151     0.999951       491983     20480.00
      73.663     0.999957       491986     23405.71
      73.855     0.999963       491989     27306.67
      73.983     0.999969       491992     32768.00
      74.175     0.999973       491996     36408.89
      74.175     0.999976       491996     40960.00
      74.367     0.999979       491998     46811.43
      74.367     0.999982       491998     54613.33
      74.879     0.999985       492001     65536.00
      74.879     0.999986       492001     72817.78
      74.879     0.999988       492001     81920.00
      75.071     0.999989       492002     93622.86
      75.135     0.999991       492003    109226.67
      75.391     0.999992       492004    131072.00
      75.391     0.999993       492004    145635.56
      75.391     0.999994       492004    163840.00
      75.839     0.999995       492005    187245.71
      75.839     0.999995       492005    218453.33
      75.967     0.999996       492006    262144.00
      75.967     0.999997       492006    291271.11
      75.967     0.999997       492006    327680.00
      75.967     0.999997       492006    374491.43
      75.967     0.999998       492006    436906.67
      76.095     0.999998       492007    524288.00
      76.095     1.000000       492007          inf

