 Detailed Percentile spectrum:
       Value   Percentile   TotalCount 1/(1-Percentile)

       0.091     0.000000            1         1.00
       1.011     0.100000        39376         1.11
       1.421     0.200000        78782         1.25
       1.863     0.300000       118115         1.43
       2.439     0.400000       157513         1.67
       3.241     0.500000       196820         2.00
       3.731     0.550000       216501         2.22
       4.331     0.600000       236234         2.50
       5.123     0.650000       255926         2.86
       6.247     0.700000       275550         3.33
       8.103     0.750000       295237         4.00
       9.607     0.775000       305085         4.44
      11.999     0.800000       314899         5.00
      16.399     0.825000       324743         5.71
      24.159     0.850000       334567         6.67
      36.351     0.875000       344417         8.00
      42.175     0.887500       349346         8.89
      48.575     0.900000       354263        10.00
      56.191     0.912500       359181        11.43
      66.367     0.925000       364084        13.33
      77.375     0.937500       369021        16.00
      84.095     0.943750       371483        17.78
      91.263     0.950000       373925        20.00
      98.687     0.956250       376390        22.86
     105.279     0.962500       378848        26.67
     112.255     0.968750       381305        32.00
     116.351     0.971875       382551        35.56
     120.191     0.975000       383763        40.00
     124.223     0.978125       384998        45.71
     128.639     0.981250       386227        53.33
     133.503     0.984375       387463        64.00
     136.063     0.985938       388086        71.11
     138.495     0.987500       388722        80.00
     140.799     0.989062       389319        91.43
     143.359     0.990625       389923       106.67
     146.047     0.992188       390545       128.00
     147.583     0.992969       390861       142.22
     149.119     0.993750       391160       160.00
     150.783     0.994531       391457       182.86
     152.703     0.995313       391758       213.33
     155.263     0.996094       392074       256.00
     156.799     0.996484       392226       284.44
     158.591     0.996875       392380       320.00
     160.511     0.997266       392527       365.71
     162.943     0.997656       392683       426.67
     165.887     0.998047       392840       512.00
     167.423     0.998242       392917       568.89
     168.959     0.998437       392997       640.00
     170.623     0.998633       393067       731.43
     172.927     0.998828       393144       853.33
     176.767     0.999023       393222      1024.00
     179.071     0.999121       393258      1137.78
     182.015     0.999219       393297      1280.00
     184.831     0.999316       393335      1462.86
     188.799     0.999414       393375      1706.67
     192.255     0.999512       393411      2048.00
     193.407     0.999561       393434      2275.56
     194.943     0.999609       393453      2560.00
     196.351     0.999658       393469      2925.71
     198.015     0.999707       393488      3413.33
     200.191     0.999756       393507      4096.00
     201.343     0.999780       393520      4551.11
     202.239     0.999805       393527      5120.00
     203.007     0.999829       393538      5851.43
     203.647     0.999854       393546      6826.67
     204.799     0.999878       393556      8192.00
     205.055     0.999890       393562      9102.22
     205.439     0.999902       393565     10240.00
     206.207     0.999915       393571     11702.86
     206.719     0.999927       393575     13653.33
     207.103     0.999939       393579     16384.00
     207.359     0.999945       393583     18204.44
     207.615     0.999951       393584     20480.00
     208.767     0.999957       393587     23405.71
     209.023     0.999963       393590     27306.67
     209.151     0.999969       393591     32768.00
     209.407     0.999973       393594     36408.89
     209.407     0.999976       393594     40960.00
     210.815     0.999979       393595     46811.43
     210.943     0.999982       393596     54613.33
     211.327     0.999985       393598     65536.00
     211.327     0.999986       393598     72817.78
     211.455     0.999988       393599     81920.00
     211.455     0.999989       393599     93622.86
     212.607     0.999991       393600    109226.67
     212.607     0.999992       393600    131072.00
     213.375     0.999993       393602    145635.56
     213.375     0.999994       393602    163840.00
     213.375     0.999995       393602    187245.71
     213.375     0.999995       393602    218453.33
     213.375     0.999996       393602    262144.00
     213.375     0.999997       393602    291271.11
     213.375     0.999997       393602    327680.00
     213.375     0.999997       393602    374491.43
     215.167     0.999998       393603    436906.67
     215.167     1.000000       393603          inf

