Detailed Percentile spectrum:
       Value   Percentile   TotalCount 1/(1-Percentile)

       0.084     0.000000            1         1.00
       0.650     0.100000        19725         1.11
       0.892     0.200000        39376         1.25
       1.125     0.300000        59058         1.43
       1.375     0.400000        78768         1.67
       1.667     0.500000        98436         2.00
       1.827     0.550000       108285         2.22
       1.995     0.600000       118105         2.50
       2.173     0.650000       127985         2.86
       2.361     0.700000       137794         3.33
       2.571     0.750000       147688         4.00
       2.683     0.775000       152565         4.44
       2.809     0.800000       157504         5.00
       2.953     0.825000       162383         5.71
       3.115     0.850000       167333         6.67
       3.297     0.875000       172246         8.00
       3.407     0.887500       174678         8.89
       3.529     0.900000       177151        10.00
       3.677     0.912500       179623        11.43
       3.863     0.925000       182070        13.33
       4.107     0.937500       184538        16.00
       4.263     0.943750       185756        17.78
       4.455     0.950000       186981        20.00
       4.683     0.956250       188220        22.86
       4.987     0.962500       189449        26.67
       5.367     0.968750       190672        32.00
       5.607     0.971875       191295        35.56
       5.883     0.975000       191899        40.00
       6.215     0.978125       192515        45.71
       6.619     0.981250       193132        53.33
       7.119     0.984375       193748        64.00
       7.451     0.985938       194057        71.11
       7.775     0.987500       194361        80.00
       8.151     0.989062       194670        91.43
       8.631     0.990625       194975       106.67
       9.143     0.992188       195283       128.00
       9.527     0.992969       195438       142.22
       9.983     0.993750       195590       160.00
      10.559     0.994531       195745       182.86
      11.087     0.995313       195897       213.33
      11.807     0.996094       196053       256.00
      12.247     0.996484       196128       284.44
      12.559     0.996875       196204       320.00
      13.047     0.997266       196281       365.71
      13.671     0.997656       196360       426.67
      14.487     0.998047       196435       512.00
      14.919     0.998242       196476       568.89
      15.495     0.998437       196512       640.00
      16.095     0.998633       196550       731.43
      16.655     0.998828       196589       853.33
      17.343     0.999023       196627      1024.00
      17.775     0.999121       196647      1137.78
      18.127     0.999219       196666      1280.00
      18.559     0.999316       196685      1462.86
      19.087     0.999414       196704      1706.67
      19.663     0.999512       196724      2048.00
      19.967     0.999561       196733      2275.56
      21.007     0.999609       196743      2560.00
      21.391     0.999658       196752      2925.71
      21.919     0.999707       196762      3413.33
      22.463     0.999756       196771      4096.00
      22.671     0.999780       196776      4551.11
      22.991     0.999805       196781      5120.00
      23.311     0.999829       196786      5851.43
      24.047     0.999854       196792      6826.67
      24.463     0.999878       196796      8192.00
      24.591     0.999890       196798      9102.22
      24.799     0.999902       196800     10240.00
      24.975     0.999915       196803     11702.86
      25.007     0.999927       196805     13653.33
      25.423     0.999939       196807     16384.00
      25.471     0.999945       196809     18204.44
      25.567     0.999951       196811     20480.00
      25.567     0.999957       196811     23405.71
      25.919     0.999963       196812     27306.67
      25.983     0.999969       196813     32768.00
      26.415     0.999973       196815     36408.89
      26.415     0.999976       196815     40960.00
      26.415     0.999979       196815     46811.43
      27.023     0.999982       196816     54613.33
      27.023     0.999985       196816     65536.00
      27.503     0.999986       196817     72817.78
      27.503     0.999988       196817     81920.00
      27.503     0.999989       196817     93622.86
      28.575     0.999991       196818    109226.67
      28.575     0.999992       196818    131072.00
      28.575     0.999993       196818    145635.56
      28.575     0.999994       196818    163840.00
      28.575     0.999995       196818    187245.71
      30.351     0.999995       196819    218453.33
      30.351     1.000000       196819          inf

