Detailed Percentile spectrum:
       Value   Percentile   TotalCount 1/(1-Percentile)

       0.095     0.000000            1         1.00
       1.185     0.100000        49227         1.11
       1.736     0.200000        98393         1.25
       2.425     0.300000       147590         1.43
       3.451     0.400000       196780         1.67
       5.143     0.500000       246036         2.00
       6.639     0.550000       270564         2.22
       9.735     0.600000       295170         2.50
      18.447     0.650000       319773         2.86
      36.287     0.700000       344369         3.33
      64.159     0.750000       368951         4.00
      81.023     0.775000       381283         4.44
     100.735     0.800000       393543         5.00
     120.895     0.825000       405868         5.71
     145.791     0.850000       418180         6.67
     180.863     0.875000       430447         8.00
     204.415     0.887500       436598         8.89
     232.831     0.900000       442750        10.00
     262.399     0.912500       448924        11.43
     287.999     0.925000       455079        13.33
     308.991     0.937500       461205        16.00
     319.231     0.943750       464264        17.78
     329.983     0.950000       467350        20.00
     339.455     0.956250       470451        22.86
     348.671     0.962500       473508        26.67
     359.423     0.968750       476581        32.00
     365.823     0.971875       478134        35.56
     373.247     0.975000       479635        40.00
     382.463     0.978125       481185        45.71
     391.935     0.981250       482732        53.33
     402.943     0.984375       484244        64.00
     409.599     0.985938       485029        71.11
     417.791     0.987500       485799        80.00
     427.007     0.989062       486562        91.43
     437.503     0.990625       487326       106.67
     450.815     0.992188       488085       128.00
     456.959     0.992969       488482       142.22
     462.847     0.993750       488854       160.00
     468.735     0.994531       489240       182.86
     474.367     0.995313       489631       213.33
     479.999     0.996094       490016       256.00
     482.815     0.996484       490206       284.44
     485.631     0.996875       490405       320.00
     488.447     0.997266       490591       365.71
     491.775     0.997656       490781       426.67
     494.847     0.998047       490972       512.00
     496.383     0.998242       491070       568.89
     498.175     0.998437       491158       640.00
     500.479     0.998633       491259       731.43
     502.783     0.998828       491357       853.33
     505.343     0.999023       491451      1024.00
     507.135     0.999121       491500      1137.78
     508.671     0.999219       491549      1280.00
     510.719     0.999316       491591      1462.86
     513.023     0.999414       491640      1706.67
     514.815     0.999512       491686      2048.00
     515.839     0.999561       491713      2275.56
     517.375     0.999609       491742      2560.00
     518.655     0.999658       491762      2925.71
     519.679     0.999707       491786      3413.33
     520.703     0.999756       491809      4096.00
     521.215     0.999780       491822      4551.11
     521.727     0.999805       491831      5120.00
     522.495     0.999829       491844      5851.43
     523.263     0.999854       491855      6826.67
     524.031     0.999878       491866      8192.00
     524.799     0.999890       491873      9102.22
     525.823     0.999902       491881     10240.00
     526.335     0.999915       491885     11702.86
     526.847     0.999927       491891     13653.33
     528.383     0.999939       491897     16384.00
     528.895     0.999945       491899     18204.44
     529.919     0.999951       491903     20480.00
     531.967     0.999957       491906     23405.71
     533.503     0.999963       491910     27306.67
     534.015     0.999969       491913     32768.00
     534.015     0.999973       491913     36408.89
     535.039     0.999976       491915     40960.00
     535.551     0.999979       491918     46811.43
     535.551     0.999982       491918     54613.33
     536.063     0.999985       491919     65536.00
     537.599     0.999986       491922     72817.78
     537.599     0.999988       491922     81920.00
     537.599     0.999989       491922     93622.86
     537.599     0.999991       491922    109226.67
     539.135     0.999992       491923    131072.00
     539.135     0.999993       491923    145635.56
     539.135     0.999994       491923    163840.00
     539.647     0.999995       491925    187245.71
     539.647     0.999995       491925    218453.33
     539.647     0.999996       491925    262144.00
     539.647     0.999997       491925    291271.11
     539.647     0.999997       491925    327680.00
     539.647     0.999997       491925    374491.43
     539.647     0.999998       491925    436906.67
     540.671     0.999998       491926    524288.00
     540.671     1.000000       491926          inf

